aX,aY,aZ,gX,gY,gZ
-0.375,-2.770,-0.286,-53.711,25.696,-73.120
-0.303,-3.247,-0.426,-90.149,37.598,-74.890
-0.228,-3.443,-0.564,-128.052,47.363,-58.289
-0.142,-3.331,-0.597,-149.170,47.119,-23.560
-0.052,-3.064,-0.530,-139.465,35.095,22.644
-0.010,-2.833,-0.365,-102.905,13.428,66.650
-0.079,-2.616,-0.122,-58.716,-10.620,99.670
-0.160,-2.339,0.129,-22.278,-26.184,126.099
-0.229,-1.982,0.327,1.587,-28.992,148.071
-0.250,-1.596,0.387,8.850,-15.991,160.889
-0.104,-1.278,0.250,-4.211,4.211,159.485
-0.257,-0.675,0.075,-36.621,19.409,137.146
-0.333,-0.110,0.015,-82.703,31.982,116.699
-0.218,0.342,-0.266,-108.887,33.264,114.868
0.084,0.632,-0.278,-103.699,48.157,113.892
0.186,0.832,-0.232,-90.210,54.749,95.825
0.169,0.977,-0.205,-68.970,36.255,76.050
0.165,0.973,-0.110,-33.691,23.376,59.814
0.106,0.914,-0.082,-3.601,19.043,43.335
0.055,0.802,-0.076,13.428,18.738,29.541
-0.024,0.742,-0.174,16.052,24.963,15.991
0.031,0.703,-0.300,0.793,36.743,2.380
0.084,0.729,-0.478,-19.897,44.434,-15.198
0.094,0.708,-0.605,-33.997,41.565,-33.997
0.131,0.631,-0.659,-30.151,32.288,-44.739
0.153,0.611,-0.643,-12.024,18.799,-44.739
0.135,0.643,-0.558,13.733,2.625,-40.161
0.077,0.677,-0.377,43.152,-11.963,-36.560
0.019,0.704,-0.201,70.984,-19.836,-34.180
-0.010,0.722,-0.100,92.529,-19.165,-37.476
-0.075,0.692,-0.090,98.999,-14.404,-51.147
-0.101,0.509,-0.084,95.215,-8.240,-72.937
-0.118,0.185,-0.084,86.487,-1.587,-98.389
-0.167,-0.127,-0.112,76.172,2.808,-118.713
-0.195,-0.431,-0.188,72.510,6.104,-126.709
-0.151,-0.821,-0.277,79.285,5.859,-127.197
-0.180,-1.252,-0.306,88.806,0.061,-127.991
-0.294,-1.591,-0.351,91.370,-8.484,-126.221
-0.340,-1.832,-0.357,89.844,-10.803,-111.145
-0.269,-2.026,-0.380,92.163,-6.165,-88.989
-0.253,-2.180,-0.426,94.360,-5.005,-72.266
-0.276,-2.345,-0.494,92.041,-7.507,-62.500
-0.272,-2.506,-0.558,80.505,-8.423,-54.810
-0.249,-2.578,-0.598,61.096,-7.507,-43.396
-0.219,-2.534,-0.631,40.466,-6.165,-28.870
-0.176,-2.432,-0.653,25.208,-5.676,-14.282
-0.150,-2.313,-0.651,18.188,-7.568,-0.916
-0.134,-2.179,-0.605,17.456,-11.230,13.184
-0.118,-1.988,-0.544,17.456,-13.672,27.039
-0.078,-1.805,-0.489,17.212,-14.465,39.734
-0.070,-1.631,-0.450,17.090,-18.250,45.471
-0.092,-1.512,-0.363,9.766,-20.264,43.030
-0.099,-1.428,-0.313,-6.653,-18.677,36.560
-0.067,-1.356,-0.266,-26.733,-13.916,30.151
-0.086,-1.256,-0.277,-46.021,-8.911,24.536
0.021,-1.189,-0.283,-60.608,-2.380,18.738
-0.043,-1.072,-0.304,-71.716,0.305,7.996
-0.102,-1.001,-0.265,-74.524,4.761,7.690
-0.015,-0.948,-0.269,-65.857,7.019,16.113
0.051,-0.880,-0.235,-54.138,6.592,18.799
0.012,-0.831,-0.200,-41.565,-1.831,12.878
-0.034,-0.840,-0.142,-29.175,-10.193,5.554
-0.056,-0.877,-0.097,-23.315,-11.780,-0.061
-0.065,-0.896,-0.066,-24.902,-8.667,-4.395
-0.085,-0.882,-0.052,-29.602,-5.005,-6.836
-0.089,-0.864,-0.066,-34.241,-0.061,-8.423
-0.061,-0.861,-0.082,-35.706,5.188,-10.010
-0.046,-0.884,-0.090,-34.851,7.324,-12.817
-0.053,-0.910,-0.095,-31.860,5.371,-15.198
-0.065,-0.938,-0.082,-26.978,2.258,-15.503
-0.083,-0.959,-0.073,-22.156,-0.427,-14.893
-0.119,-0.973,-0.044,-17.700,-0.977,-11.780
-0.097,-0.991,-0.028,-12.268,2.319,-6.531
-0.090,-1.001,-0.033,-8.911,4.639,-3.784
-0.088,-1.011,-0.045,-8.484,6.226,-3.296
-0.090,-1.016,-0.059,-9.705,6.714,-2.991
-0.085,-0.997,-0.075,-11.108,7.141,-2.197
-0.068,-0.982,-0.094,-11.047,6.653,-2.197
-0.072,-0.985,-0.109,-8.301,4.211,-2.258
-0.072,-1.004,-0.105,-2.380,2.808,-0.427
-0.065,-1.025,-0.099,3.845,2.319,2.380
-0.058,-1.031,-0.089,7.080,1.953,4.639
-0.062,-1.025,-0.079,7.874,1.953,5.615
-0.062,-1.019,-0.075,7.202,2.380,5.920
-0.057,-1.002,-0.088,6.531,4.089,6.653
-0.045,-0.993,-0.107,7.507,6.042,7.812
-0.036,-0.986,-0.127,8.850,7.690,8.057
-0.033,-0.988,-0.150,10.498,8.484,7.935
-0.022,-1.001,-0.152,12.268,8.850,8.179
-0.017,-1.018,-0.150,12.695,7.996,7.507
-0.017,-1.026,-0.143,11.230,6.287,6.653
-0.039,-1.010,-0.163,8.972,5.676,5.249
-0.052,-1.003,-0.166,7.202,7.935,5.676
-0.007,-1.013,-0.212,7.019,10.803,7.568
0.013,-1.019,-0.232,5.188,9.705,6.714
-0.008,-1.008,-0.229,3.296,5.432,4.395
-0.024,-1.009,-0.215,3.845,1.831,3.784
-0.022,-1.028,-0.194,5.798,0.610,4.639
-0.023,-1.050,-0.181,6.165,0.427,4.822
-0.030,-1.053,-0.177,4.456,1.404,5.066
-0.031,-1.045,-0.185,1.770,2.686,5.615
-0.023,-1.032,-0.193,-0.488,3.967,6.226
-0.016,-1.019,-0.198,-0.244,3.906,7.019
-0.012,-1.011,-0.199,2.808,2.075,7.141
-0.015,-1.016,-0.191,5.249,-0.793,6.104
-0.025,-1.027,-0.173,6.348,-3.174,5.066
-0.037,-1.036,-0.153,6.042,-4.333,4.517
-0.045,-1.044,-0.128,3.845,-4.150,4.272
-0.045,-1.032,-0.119,1.587,-2.808,4.944
-0.035,-1.016,-0.126,0.427,-0.488,6.104
-0.026,-1.001,-0.138,0.183,1.282,6.409
-0.026,-0.992,-0.147,1.221,1.587,5.859
-0.026,-0.985,-0.156,3.113,0.488,5.554
-0.026,-0.984,-0.158,5.249,-0.732,5.432
-0.035,-0.989,-0.149,6.531,-1.770,4.761
-0.037,-0.990,-0.131,6.897,-2.136,4.211
-0.038,-0.994,-0.126,5.493,-1.404,3.845
-0.032,-0.995,-0.125,3.296,-0.061,3.052
-0.028,-0.990,-0.131,1.587,0.854,2.136

-0.470,-2.612,-0.012,-65.369,-9.094,-86.975
-0.538,-3.036,0.006,-91.553,-8.301,-93.506
-0.543,-3.294,0.013,-121.277,-0.854,-86.426
-0.474,-3.381,0.002,-142.517,9.949,-66.833
-0.358,-3.397,0.020,-140.747,17.700,-34.668
-0.261,-3.307,0.039,-115.601,22.095,7.385
-0.242,-3.081,0.046,-81.177,24.841,55.969
-0.224,-2.712,0.024,-49.133,28.076,103.882
-0.258,-2.286,-0.031,-22.949,28.625,145.325
-0.294,-1.867,-0.082,-5.005,25.085,178.711
-0.316,-1.419,-0.120,0.610,18.494,202.942
-0.310,-0.976,-0.132,-3.906,11.414,217.163
-0.109,-0.703,-0.101,-8.972,3.174,220.764
-0.239,-0.201,-0.045,-20.020,-5.554,206.543
-0.364,0.271,0.129,-39.978,-7.507,193.604
-0.285,0.666,-0.014,-40.649,-0.427,193.420
-0.116,0.883,0.051,-28.809,20.752,182.922
-0.023,1.043,-0.007,-28.076,37.415,154.175
-0.011,1.167,-0.162,-32.776,37.476,120.178
0.002,1.166,-0.312,-34.119,38.025,90.820
0.055,1.132,-0.440,-34.058,38.513,67.688
0.114,1.116,-0.551,-32.227,33.508,49.805
0.079,1.116,-0.606,-25.452,23.437,35.461
0.118,1.076,-0.601,-10.864,15.015,27.893
0.135,1.011,-0.543,7.446,5.981,20.325
0.093,0.982,-0.473,21.973,-3.174,11.353
0.077,0.984,-0.398,32.227,-7.141,4.089
0.090,0.974,-0.341,41.931,-8.240,-3.052
0.081,0.936,-0.266,50.842,-10.925,-13.611
0.054,0.854,-0.164,59.448,-13.977,-28.198
0.063,0.766,-0.104,66.589,-13.184,-42.664
0.013,0.762,-0.117,70.679,-7.996,-57.007
0.062,0.768,-0.213,74.341,-1.038,-68.481
0.084,0.772,-0.223,82.703,1.770,-82.275
-0.006,0.721,-0.203,96.375,-4.517,-98.022
-0.112,0.527,-0.113,115.051,-11.230,-116.638
-0.206,0.204,-0.061,127.747,-7.690,-137.634
-0.273,-0.203,-0.080,132.446,0.549,-158.081
-0.335,-0.681,-0.156,125.183,9.216,-180.115
-0.334,-1.197,-0.277,103.882,18.860,-200.623
-0.352,-1.724,-0.479,77.026,25.757,-210.022
-0.307,-2.198,-0.615,52.551,25.757,-202.148
-0.386,-2.466,-0.675,25.024,18.372,-187.439
-0.424,-2.621,-0.698,1.892,12.451,-165.466
-0.390,-2.775,-0.696,0.183,6.775,-138.855
-0.361,-2.928,-0.676,10.620,-1.709,-113.586
-0.318,-3.003,-0.636,23.499,-10.132,-85.144
-0.303,-2.955,-0.541,39.063,-19.226,-51.697
-0.311,-2.798,-0.495,55.725,-27.771,-20.020
-0.350,-2.625,-0.406,68.665,-32.166,6.287
-0.356,-2.485,-0.309,75.928,-30.273,26.978
-0.309,-2.374,-0.220,67.261,-26.794,36.011
-0.305,-2.258,-0.229,42.603,-23.071,36.682
-0.309,-2.057,-0.215,10.803,-13.733,37.170
-0.199,-1.845,-0.227,-16.968,-2.014,41.260
-0.093,-1.642,-0.283,-32.471,4.456,43.213
-0.110,-1.451,-0.296,-37.781,5.493,40.527
-0.107,-1.272,-0.290,-34.180,4.944,43.823
-0.027,-1.149,-0.271,-20.264,5.737,50.354
-0.006,-1.059,-0.263,-8.179,3.540,49.194
-0.049,-1.005,-0.219,-4.333,0.610,40.588
-0.060,-0.982,-0.176,-8.118,1.343,32.166
-0.035,-0.954,-0.161,-17.212,5.188,25.085
-0.025,-0.903,-0.165,-28.381,8.972,17.944
0.003,-0.871,-0.169,-34.607,11.658,12.207
0.029,-0.852,-0.177,-34.241,12.268,7.019
0.029,-0.853,-0.181,-29.846,9.888,2.197
0.004,-0.878,-0.177,-23.987,7.751,-2.686
-0.014,-0.904,-0.168,-19.348,6.897,-5.127
-0.025,-0.912,-0.162,-17.334,7.385,-5.005
-0.023,-0.909,-0.176,-16.174,8.362,-4.028
-0.011,-0.920,-0.184,-15.137,8.240,-4.211
-0.013,-0.943,-0.176,-14.343,6.714,-5.371
-0.024,-0.947,-0.160,-14.282,5.005,-5.737
-0.023,-0.938,-0.151,-14.587,4.456,-5.127
-0.022,-0.927,-0.146,-14.038,4.272,-4.395
-0.023,-0.922,-0.139,-10.864,3.784,-3.479
-0.029,-0.931,-0.140,-6.897,3.418,-2.869
-0.030,-0.961,-0.147,-3.906,3.723,-2.686
-0.036,-0.979,-0.160,-4.028,4.150,-2.563
-0.032,-0.977,-0.173,-6.592,4.944,-1.831
-0.020,-0.968,-0.186,-8.240,5.615,-0.854
-0.013,-0.959,-0.192,-6.836,5.371,0.244
-0.008,-0.959,-0.188,-2.991,3.906,1.465
-0.011,-0.967,-0.178,1.770,1.892,2.380
-0.021,-0.971,-0.163,6.165,0.366,3.052
-0.025,-0.979,-0.153,8.362,-0.244,3.479
-0.028,-0.990,-0.149,8.240,-0.183,2.747
-0.031,-1.000,-0.146,6.653,0.305,2.014
-0.023,-1.001,-0.154,4.944,1.587,2.014
-0.015,-0.998,-0.172,3.784,3.174,2.319
-0.008,-0.984,-0.188,3.967,4.395,2.197
-0.001,-0.974,-0.205,4.883,4.822,1.831
0.003,-0.977,-0.216,7.080,3.967,1.099
-0.008,-0.990,-0.209,9.155,2.075,0.244
-0.019,-1.005,-0.192,9.521,0.427,-0.427
-0.024,-1.020,-0.180,8.118,0.183,-1.038
-0.027,-1.024,-0.185,5.005,0.610,-1.648
-0.029,-1.019,-0.193,1.770,1.221,-2.747
-0.028,-1.011,-0.199,0.061,1.404,-3.662
-0.026,-1.009,-0.203,0.854,1.770,-4.272
-0.022,-1.016,-0.210,3.113,1.587,-4.395
-0.024,-1.030,-0.207,4.883,1.160,-4.395
-0.033,-1.044,-0.195,5.249,0.427,-4.456
-0.039,-1.054,-0.183,4.700,0.061,-4.395
-0.047,-1.056,-0.180,2.563,0.488,-4.578
-0.050,-1.053,-0.179,0.122,0.549,-4.517
-0.051,-1.047,-0.182,-0.854,0.427,-4.211
-0.050,-1.041,-0.182,-0.549,0.427,-3.601
-0.049,-1.040,-0.180,0.122,0.488,-2.808
-0.050,-1.033,-0.174,1.038,0.305,-2.075
-0.049,-1.029,-0.168,2.136,0.732,-1.038
-0.046,-1.034,-0.164,3.052,1.221,-0.305
-0.049,-1.036,-0.155,2.625,1.648,-0.061
-0.050,-1.026,-0.153,0.854,2.319,0.183
-0.046,-1.012,-0.161,-1.038,3.052,0.305
-0.044,-1.001,-0.169,-1.282,2.991,0.244
-0.039,-1.001,-0.175,-0.366,2.625,0.488
-0.040,-1.002,-0.173,0.610,1.648,0.916

-0.503,-2.640,0.017,-108.948,8.850,-104.126
-0.585,-2.963,0.065,-132.202,11.841,-111.084
-0.632,-3.282,0.123,-152.100,16.907,-111.633
-0.659,-3.572,0.172,-167.175,24.597,-102.722
-0.579,-3.845,0.191,-174.500,34.851,-78.674
-0.534,-3.876,0.155,-174.683,45.837,-36.560
-0.557,-3.644,0.158,-167.786,56.396,20.752
-0.565,-3.145,0.118,-148.193,67.139,85.815
-0.541,-2.584,0.048,-108.582,75.317,144.653
-0.480,-2.093,-0.007,-58.167,75.745,189.514
-0.411,-1.642,-0.067,-12.268,68.359,221.375
-0.450,-1.191,-0.172,24.841,57.068,245.850
-0.444,-0.697,-0.226,44.800,45.898,271.667
-0.368,-0.092,-0.296,34.302,31.616,284.729
-0.635,0.711,-0.202,-5.310,18.494,272.461
-0.537,1.375,-0.161,-37.170,17.578,263.855
-0.345,1.908,-0.193,-46.387,26.367,244.507
-0.087,2.222,-0.152,-48.523,51.270,202.881
-0.010,2.414,-0.254,-46.143,55.481,148.376
0.032,2.441,-0.388,-34.363,51.575,97.717
0.087,2.312,-0.494,-22.522,49.011,47.913
0.092,2.068,-0.545,-14.038,40.100,2.014
0.066,1.788,-0.548,-4.089,28.748,-33.630
0.015,1.521,-0.517,5.493,20.752,-57.495
0.026,1.241,-0.523,13.489,15.259,-74.585
0.002,0.953,-0.483,23.804,8.606,-89.478
-0.057,0.675,-0.425,34.729,-0.488,-100.647
-0.105,0.379,-0.352,45.044,-8.545,-108.032
-0.143,0.053,-0.253,55.237,-14.771,-112.366
-0.172,-0.248,-0.187,63.477,-18.921,-113.525
-0.182,-0.485,-0.189,66.711,-19.531,-110.046
-0.148,-0.654,-0.229,67.627,-18.127,-102.844
-0.144,-0.762,-0.261,67.749,-19.897,-94.788
-0.161,-0.825,-0.275,69.824,-24.109,-86.121
-0.133,-0.912,-0.316,76.416,-26.978,-76.355
-0.083,-1.031,-0.286,83.130,-29.724,-69.580
-0.074,-1.128,-0.257,86.426,-37.964,-63.232
-0.089,-1.177,-0.234,90.820,-42.969,-54.199
-0.035,-1.251,-0.194,94.543,-38.574,-42.603
0.005,-1.272,-0.208,97.107,-34.302,-32.715
-0.034,-1.245,-0.178,95.215,-34.424,-27.893
-0.040,-1.238,-0.169,91.858,-31.738,-24.170
-0.016,-1.277,-0.184,88.928,-26.245,-22.400
-0.038,-1.342,-0.200,84.534,-23.437,-24.536
-0.050,-1.428,-0.212,76.355,-21.362,-28.137
-0.042,-1.516,-0.246,64.880,-17.639,-29.480
-0.031,-1.585,-0.254,54.810,-14.099,-27.222
-0.043,-1.610,-0.251,47.180,-12.878,-22.766
-0.005,-1.609,-0.276,41.504,-12.268,-16.724
-0.015,-1.614,-0.297,42.297,-13.367,-11.658
-0.019,-1.676,-0.284,47.913,-15.442,-9.399
-0.065,-1.738,-0.262,49.622,-18.188,-9.033
-0.065,-1.762,-0.250,49.744,-16.174,-3.235
-0.048,-1.738,-0.244,50.049,-12.634,7.385
-0.006,-1.677,-0.223,49.866,-10.132,17.456
0.031,-1.640,-0.228,51.270,-10.193,23.926
-0.042,-1.600,-0.210,51.208,-12.390,23.499
-0.065,-1.599,-0.180,45.959,-11.414,23.804
-0.025,-1.586,-0.181,38.025,-6.592,25.879
-0.003,-1.547,-0.187,27.527,-2.380,25.940
0.007,-1.498,-0.192,16.602,-0.122,24.170
0.010,-1.434,-0.193,8.179,1.282,22.156
0.011,-1.391,-0.200,4.089,3.052,21.362
0.021,-1.339,-0.225,3.479,4.272,20.508
0.029,-1.299,-0.230,4.272,4.700,21.545
0.056,-1.261,-0.250,7.812,5.493,23.621
0.035,-1.215,-0.255,8.484,3.967,22.705
0.046,-1.181,-0.253,5.432,2.808,20.935
0.057,-1.151,-0.239,1.648,1.587,18.860
0.065,-1.118,-0.216,-1.465,0.427,16.235
0.076,-1.098,-0.199,-3.723,0.366,13.550
0.081,-1.077,-0.203,-4.944,1.404,11.047
0.075,-1.063,-0.207,-5.432,2.197,8.850
0.064,-1.052,-0.200,-5.981,2.380,6.836
0.065,-1.035,-0.195,-7.019,2.869,5.676
0.068,-1.013,-0.203,-6.592,3.906,5.005
0.065,-0.994,-0.211,-5.920,4.517,3.967
0.055,-0.982,-0.228,-5.859,4.272,2.258
0.067,-0.977,-0.241,-6.104,4.700,0.366
0.065,-0.974,-0.252,-6.897,4.700,-1.099
0.066,-0.967,-0.258,-7.996,3.906,-2.014
0.067,-0.951,-0.260,-8.789,3.235,-2.258
0.068,-0.938,-0.255,-8.972,2.563,-2.869
0.065,-0.929,-0.239,-8.484,1.526,-3.845
0.065,-0.920,-0.228,-7.507,1.160,-4.578
0.063,-0.915,-0.224,-6.409,1.526,-5.310
0.057,-0.916,-0.224,-5.615,1.587,-6.226
0.049,-0.926,-0.215,-5.432,1.526,-7.507
0.042,-0.941,-0.211,-6.836,1.892,-9.155
0.040,-0.947,-0.219,-8.850,2.808,-10.315
0.037,-0.954,-0.233,-9.827,4.089,-10.742
0.038,-0.966,-0.239,-9.460,4.150,-11.230
0.041,-0.980,-0.245,-8.789,3.784,-11.475
0.044,-0.989,-0.240,-8.118,2.563,-11.108
0.036,-0.991,-0.229,-7.263,1.221,-10.376
0.034,-0.986,-0.220,-6.409,0.122,-9.949
0.032,-0.977,-0.209,-5.737,-0.061,-9.644
0.029,-0.973,-0.202,-4.211,0.061,-9.766
0.027,-0.984,-0.199,-2.014,0.732,-10.315
0.027,-0.983,-0.199,-1.465,1.648,-10.681
0.024,-0.979,-0.206,-1.404,1.953,-11.108
0.018,-0.970,-0.214,-1.465,2.197,-11.597
0.014,-0.972,-0.214,-0.793,2.014,-12.573
0.008,-0.984,-0.211,-0.793,1.404,-14.099
0.002,-0.996,-0.200,-1.221,0.793,-15.320
-0.001,-1.006,-0.189,-1.282,0.732,-15.625
0.003,-1.024,-0.184,-1.160,1.282,-14.832
0.001,-1.025,-0.189,-1.343,2.502,-13.611
-0.002,-1.015,-0.203,-1.343,3.784,-12.085
-0.004,-1.000,-0.211,-0.305,4.883,-10.681
-0.010,-0.993,-0.217,1.587,5.249,-9.827
-0.011,-1.007,-0.219,3.784,5.188,-9.766
-0.019,-1.029,-0.224,4.028,4.700,-9.766
-0.018,-1.055,-0.228,2.075,3.967,-9.705
-0.015,-1.057,-0.225,-1.038,3.296,-8.484
-0.012,-1.039,-0.224,-2.258,2.869,-6.592
-0.009,-1.025,-0.226,-1.038,2.808,-4.944
-0.011,-1.014,-0.226,1.770,2.625,-3.418
-0.014,-1.011,-0.222,3.662,2.258,-2.380

-0.589,-2.714,-0.059,-61.584,-8.240,-97.900
-0.661,-3.214,-0.019,-102.356,-1.221,-113.281
-0.662,-3.652,-0.047,-143.005,11.230,-113.525
-0.609,-3.997,-0.088,-170.715,25.513,-93.933
-0.565,-4.000,-0.134,-177.063,36.194,-49.011
-0.537,-3.992,-0.194,-165.527,44.434,14.954
-0.509,-3.567,-0.232,-142.944,53.101,85.876
-0.482,-3.035,-0.261,-106.506,56.580,146.790
-0.465,-2.564,-0.280,-57.800,52.795,194.092
-0.481,-2.170,-0.229,-18.616,44.373,228.333
-0.494,-1.728,-0.152,-2.869,39.063,254.150
-0.488,-1.139,-0.181,-7.507,41.016,276.672
-0.556,-0.295,-0.301,-27.466,42.419,292.297
-0.509,0.659,-0.496,-62.073,44.373,291.626
-0.203,1.474,-0.663,-93.933,47.791,268.799
0.005,2.051,-0.702,-99.060,37.964,222.595
0.113,2.261,-0.556,-80.322,16.113,163.025
0.158,2.126,-0.453,-47.852,-4.272,111.755
0.146,1.911,-0.196,-22.644,-9.277,67.322
0.246,1.617,-0.050,-18.982,2.686,29.175
0.213,1.406,-0.071,-20.874,7.568,-2.319
0.218,1.149,-0.100,-21.484,12.268,-31.006
0.206,0.845,-0.141,-19.470,14.587,-57.434
0.169,0.520,-0.126,-10.620,11.719,-76.660
0.122,0.194,-0.073,1.404,7.996,-85.083
0.116,-0.082,-0.048,12.146,4.272,-85.144
0.062,-0.295,-0.032,17.639,0.183,-83.008
0.032,-0.458,-0.045,19.226,-2.136,-77.881
0.028,-0.590,-0.075,21.362,-2.808,-69.092
0.018,-0.714,-0.077,25.391,-4.517,-59.204
0.022,-0.843,-0.034,30.090,-6.958,-49.622
0.004,-0.938,0.019,31.067,-9.583,-42.603
-0.046,-0.962,0.072,26.978,-10.498,-38.208
0.025,-1.073,0.103,22.522,-7.996,-31.921
0.032,-1.117,0.088,18.799,-4.944,-29.724
0.004,-1.154,0.062,9.460,-4.089,-30.029
0.045,-1.177,0.055,4.395,-0.061,-26.184
0.077,-1.171,0.008,3.296,2.197,-19.775
0.111,-1.157,-0.061,4.639,0.366,-13.123
0.145,-1.178,-0.086,9.155,-0.427,-8.728
0.159,-1.206,-0.071,13.428,-1.831,-6.165
0.170,-1.215,-0.046,16.052,-4.822,-2.380
0.166,-1.199,-0.016,17.029,-7.507,1.770
0.166,-1.185,0.009,16.418,-8.484,4.272
0.173,-1.180,0.037,14.221,-8.179,4.883
0.171,-1.153,0.060,9.460,-6.897,4.150
0.177,-1.112,0.040,4.089,-5.798,3.662
0.186,-1.064,0.005,0.916,-3.967,3.052
0.188,-1.041,-0.033,-1.099,-0.732,1.282
0.233,-1.028,-0.047,-2.197,1.099,0.061
0.230,-1.018,-0.087,-2.991,0.793,-1.587
0.203,-1.000,-0.095,-4.272,-3.479,-5.310
0.186,-0.973,-0.066,-5.249,-5.310,-7.568
0.226,-1.002,-0.086,-2.625,-4.028,-7.385
0.181,-1.010,-0.075,-1.465,-5.676,-9.521
0.175,-1.014,-0.062,-3.296,-5.737,-9.705
0.178,-1.004,-0.055,-6.958,-4.639,-10.437
0.173,-0.980,-0.046,-10.071,-3.784,-12.390
0.163,-0.974,-0.047,-9.766,-4.211,-13.367
0.160,-0.974,-0.047,-6.409,-5.127,-13.123
0.153,-0.974,-0.041,-2.441,-6.531,-12.329
0.141,-0.971,-0.030,2.197,-7.935,-10.925
0.132,-0.967,-0.016,7.812,-9.216,-8.545
0.120,-0.968,0.009,12.695,-10.376,-6.592
0.097,-0.961,0.033,14.893,-10.925,-5.920
0.086,-0.948,0.043,13.611,-9.705,-5.981
0.082,-0.943,0.050,10.376,-8.240,-6.714
0.078,-0.946,0.047,7.385,-6.897,-8.301
0.087,-0.952,0.030,5.005,-5.554,-9.644
0.098,-0.960,0.015,4.944,-4.761,-9.644
0.101,-0.958,0.007,7.263,-5.615,-8.789
0.096,-0.956,0.026,11.841,-6.897,-7.080
0.089,-0.950,0.054,16.846,-8.240,-6.042
0.083,-0.960,0.073,21.301,-8.545,-5.737
0.060,-0.975,0.096,24.292,-8.667,-5.981
0.037,-0.998,0.112,24.841,-8.850,-6.958
0.029,-1.031,0.117,22.034,-7.263,-8.911
0.031,-1.064,0.099,18.860,-4.822,-9.949
0.043,-1.076,0.078,15.991,-2.380,-9.399
0.051,-1.060,0.058,14.038,-0.549,-7.446
0.063,-1.032,0.038,14.404,0.488,-5.432
0.099,-1.029,0.027,17.761,0.671,-3.357
0.064,-1.010,0.015,22.583,-1.953,-2.441
0.063,-1.027,0.016,26.917,-3.357,-0.977
0.056,-1.048,0.023,28.503,-4.944,-0.305
0.055,-1.055,0.034,28.198,-5.066,0.610
0.052,-1.039,0.032,26.672,-3.723,2.014
0.068,-1.008,0.023,25.146,-1.465,3.479
0.083,-0.975,0.006,24.719,-0.061,3.845
0.086,-0.958,-0.002,26.367,0.488,3.174
0.089,-0.955,-0.008,28.809,0.854,2.380
0.090,-0.967,-0.010,29.907,1.221,1.038
0.088,-0.993,-0.007,28.625,0.977,-1.343
0.074,-1.018,-0.006,25.696,0.977,-3.540
0.077,-1.040,-0.021,22.156,2.014,-4.639
0.083,-1.047,-0.044,18.005,3.296,-5.249
0.086,-1.031,-0.064,15.015,3.967,-5.066
0.099,-1.009,-0.086,15.381,4.456,-3.845
0.103,-0.993,-0.100,18.555,3.967,-2.319
0.096,-0.984,-0.101,23.071,2.563,-1.343
0.090,-0.992,-0.093,26.184,1.343,-0.916
0.075,-1.004,-0.085,27.100,0.549,-1.282
0.069,-1.024,-0.082,25.208,0.427,-2.075
0.074,-1.043,-0.088,20.325,1.526,-3.052
0.083,-1.046,-0.097,14.709,2.319,-3.845
0.091,-1.036,-0.110,10.986,3.052,-3.357
0.105,-1.011,-0.113,10.315,3.296,-2.075
0.114,-0.990,-0.123,12.878,2.197,-0.305
0.097,-0.977,-0.115,17.334,0.183,0.793
0.081,-0.982,-0.101,21.118,-1.892,0.610
0.065,-0.999,-0.105,21.912,-2.319,-0.610
0.086,-1.031,-0.115,20.203,-1.831,-1.221
0.096,-1.045,-0.121,17.273,-2.625,-2.197
0.061,-1.018,-0.112,12.512,-3.357,-3.296
0.092,-1.003,-0.122,11.047,-1.404,-0.244
0.115,-0.982,-0.143,12.207,0.427,2.502
0.124,-0.929,-0.162,14.038,-0.183,3.906
0.115,-0.875,-0.166,17.822,-2.441,5.127
0.105,-0.854,-0.164,21.790,-4.517,4.150

-0.850,-2.671,0.119,-40.649,-12.390,-141.724
-0.983,-3.514,0.158,-74.036,-5.432,-162.415
-1.057,-4.000,0.159,-112.366,8.240,-162.415
-1.036,-4.000,0.097,-151.062,31.250,-131.287
-0.906,-4.000,-0.004,-177.002,59.448,-70.496
-0.758,-4.000,-0.129,-172.424,79.651,0.977
-0.669,-4.000,-0.240,-140.869,87.646,63.965
-0.599,-3.850,-0.328,-99.243,90.576,118.286
-0.571,-3.302,-0.394,-67.322,90.332,168.091
-0.542,-2.613,-0.470,-55.420,92.590,210.815
-0.483,-1.850,-0.653,-59.387,97.656,242.310
-0.400,-1.047,-0.907,-71.777,100.220,263.611
-0.283,-0.128,-1.147,-87.952,92.896,278.748
-0.135,0.893,-1.340,-107.178,74.036,281.799
0.062,1.736,-1.318,-116.516,51.514,264.160
0.257,2.275,-1.081,-100.342,25.085,226.685
0.271,2.517,-0.755,-67.017,-3.174,176.636
0.232,2.468,-0.446,-35.095,-22.705,122.437
0.184,2.245,-0.187,-20.203,-25.330,69.397
0.179,1.953,-0.086,-18.860,-17.578,25.574
0.085,1.656,-0.063,-21.118,-9.827,-11.353
0.096,1.229,0.039,-20.508,4.089,-41.809
0.054,0.842,0.092,-18.738,8.362,-64.270
-0.011,0.471,0.120,-19.531,9.399,-80.078
-0.024,0.114,0.139,-17.578,10.986,-87.830
-0.067,-0.195,0.150,-11.536,9.460,-87.341
-0.105,-0.456,0.159,-4.944,7.080,-82.031
-0.109,-0.677,0.176,3.174,5.066,-71.960
-0.106,-0.850,0.183,13.306,1.892,-59.143
-0.127,-0.961,0.197,21.423,0.061,-46.814
-0.111,-1.029,0.177,27.222,0.549,-33.020
-0.076,-1.075,0.155,31.738,1.343,-19.897
-0.038,-1.091,0.112,32.288,0.305,-9.583
-0.014,-1.057,0.057,29.419,-1.892,-2.258
-0.018,-0.993,0.017,25.757,-4.395,4.517
0.084,-1.002,-0.014,27.649,-5.920,12.695
0.102,-0.946,-0.035,30.273,-7.568,16.602
0.123,-0.865,-0.049,30.701,-8.789,19.836
0.164,-0.808,-0.083,36.255,-8.728,24.658
0.202,-0.758,-0.061,40.466,-8.057,25.574
0.214,-0.726,-0.054,42.542,-11.414,23.804
0.213,-0.750,-0.053,44.312,-14.709,19.470
0.237,-0.812,-0.046,42.664,-12.329,12.390
0.231,-0.853,-0.048,37.598,-9.277,6.042
0.235,-0.892,-0.056,32.043,-7.263,2.319
0.231,-0.939,-0.061,28.625,-6.409,-0.671
0.224,-0.978,-0.051,25.879,-5.310,-3.296
0.243,-0.989,-0.063,23.010,-4.944,-4.700
0.203,-0.986,-0.097,22.461,-8.728,-5.859
0.184,-1.003,-0.093,24.902,-9.888,-6.775
0.163,-1.019,-0.083,27.344,-10.315,-7.507
0.154,-1.086,-0.111,29.114,-9.827,-8.240
0.161,-1.133,-0.097,27.527,-12.268,-11.597
0.112,-1.098,-0.082,21.606,-12.817,-14.465
0.176,-1.115,-0.122,19.958,-8.789,-12.024
0.129,-1.097,-0.131,19.958,-10.071,-12.329
0.123,-1.099,-0.121,19.104,-11.414,-11.841
0.124,-1.109,-0.089,19.714,-12.390,-10.864
0.104,-1.122,-0.055,20.020,-13.245,-11.169
0.093,-1.131,-0.035,19.409,-13.000,-11.292
0.086,-1.144,-0.026,18.188,-11.780,-11.353
0.093,-1.151,-0.032,16.174,-10.071,-11.475
0.097,-1.143,-0.048,13.489,-8.301,-11.536
0.091,-1.133,-0.049,10.498,-7.935,-12.207
0.082,-1.139,-0.044,9.216,-7.812,-12.756
0.077,-1.174,-0.037,9.399,-7.690,-13.123
0.063,-1.218,-0.023,9.155,-7.690,-13.367
0.049,-1.225,-0.009,7.874,-7.324,-12.024
0.051,-1.203,-0.016,7.080,-5.981,-8.850
0.061,-1.176,-0.031,8.423,-4.211,-6.104
0.064,-1.156,-0.034,11.902,-3.601,-4.089
0.068,-1.139,-0.030,16.235,-4.150,-1.892
0.061,-1.129,-0.024,19.165,-4.333,0.366
0.061,-1.115,-0.015,20.081,-3.906,1.770
0.052,-1.107,-0.014,18.433,-3.357,1.709
0.059,-1.098,-0.012,14.343,-1.648,1.404
0.072,-1.073,-0.012,10.864,-0.732,1.221
0.075,-1.046,-0.013,9.521,-0.488,1.160
0.090,-1.031,-0.019,10.681,0.793,0.610
0.095,-1.023,-0.029,13.123,1.831,0.183
0.086,-1.024,-0.039,15.686,2.319,-0.122
0.079,-1.037,-0.044,15.686,2.686,-0.977
0.073,-1.047,-0.055,14.099,3.601,-1.892
0.078,-1.048,-0.076,10.803,4.395,-2.686
0.081,-1.045,-0.092,6.653,4.578,-3.723
0.084,-1.040,-0.098,4.150,4.089,-4.578
0.091,-1.039,-0.099,3.601,4.089,-4.761
0.070,-1.029,-0.092,4.822,4.089,-4.333
0.111,-1.055,-0.099,6.714,5.188,-2.380
0.111,-1.051,-0.109,7.812,4.272,-2.625
0.052,-1.012,-0.102,6.592,2.808,-3.357
0.096,-1.017,-0.110,8.484,4.211,-0.732
0.104,-1.031,-0.120,10.315,4.578,-0.244
0.086,-1.037,-0.120,9.033,2.930,-1.648
0.087,-1.036,-0.114,7.141,2.319,-1.343
0.092,-1.026,-0.106,4.761,2.441,-1.038
0.092,-1.024,-0.097,3.540,2.136,-1.282
0.096,-1.029,-0.091,3.418,2.014,-1.526
0.093,-1.029,-0.088,4.395,2.441,-1.160
0.093,-1.021,-0.089,5.615,2.747,-0.916
0.094,-1.018,-0.097,6.958,2.991,-0.549
0.094,-1.013,-0.107,8.667,2.869,-0.366
0.096,-1.005,-0.112,9.827,2.319,-0.183
0.093,-1.001,-0.115,10.559,1.282,-0.122
0.093,-1.008,-0.109,10.864,0.610,-0.366
0.088,-1.018,-0.102,11.108,0.183,-0.793
0.087,-1.028,-0.099,10.437,0.427,-1.038
0.085,-1.030,-0.101,8.606,0.916,-0.916
0.088,-1.023,-0.106,6.775,1.404,-0.610
0.091,-1.016,-0.112,5.249,1.709,-0.549
0.092,-1.001,-0.116,4.395,2.075,-0.366
0.098,-0.991,-0.124,4.272,2.380,-0.488
0.098,-0.990,-0.130,4.944,2.808,-0.916
0.097,-0.993,-0.131,6.042,2.441,-1.404
0.098,-0.999,-0.132,6.958,1.831,-1.831
0.093,-1.004,-0.138,7.874,1.343,-2.014
0.088,-1.015,-0.143,8.728,0.854,-1.831
0.088,-1.021,-0.141,8.545,0.366,-1.709
0.082,-1.015,-0.140,7.629,0.000,-1.404

-0.802,-2.646,0.033,-103.638,0.183,-149.292
-0.939,-3.161,0.081,-146.118,12.024,-180.054
-1.022,-3.752,0.120,-182.190,26.978,-197.876
-0.991,-4.000,0.149,-208.984,47.119,-185.486
-0.867,-4.000,0.097,-221.191,71.350,-135.132
-0.691,-4.000,-0.031,-212.097,92.957,-52.673
-0.599,-3.966,-0.209,-179.565,102.783,41.321
-0.517,-3.239,-0.377,-128.479,100.830,129.333
-0.462,-2.521,-0.500,-67.383,88.135,196.716
-0.435,-1.976,-0.511,-6.287,62.866,239.258
-0.436,-1.608,-0.488,46.875,35.522,267.151
-0.512,-1.252,-0.414,73.608,14.038,290.955
-0.573,-0.723,-0.341,56.641,1.221,311.218
-0.573,0.121,-0.249,-0.244,-0.366,322.021
-0.435,1.044,-0.220,-65.430,12.817,313.232
-0.178,1.791,-0.207,-103.577,31.128,279.541
0.030,2.168,-0.202,-101.196,36.865,224.792
0.118,2.183,-0.230,-76.050,31.250,160.278
0.092,2.004,-0.322,-56.885,26.611,98.328
0.192,1.736,-0.380,-56.152,29.968,52.124
0.184,1.574,-0.475,-62.317,32.654,18.555
0.250,1.421,-0.499,-62.317,40.955,-5.005
0.307,1.227,-0.539,-48.889,38.269,-21.973
0.260,0.991,-0.495,-26.245,26.062,-37.170
0.224,0.704,-0.405,-1.709,14.954,-47.180
0.167,0.429,-0.282,16.357,5.737,-54.382
0.120,0.201,-0.192,24.719,0.427,-58.594
0.099,0.021,-0.164,28.076,-2.197,-60.425
0.060,-0.131,-0.144,28.748,-4.089,-63.538
0.031,-0.314,-0.120,31.006,-6.348,-65.308
0.005,-0.526,-0.059,36.377,-8.118,-63.904
-0.027,-0.730,0.010,38.391,-9.705,-60.608
-0.036,-0.878,0.048,34.424,-9.155,-55.542
-0.032,-0.982,0.074,27.893,-7.812,-50.415
-0.016,-1.070,0.062,24.109,-7.141,-45.227
0.020,-1.151,0.070,24.780,-6.775,-39.612
0.041,-1.213,0.049,29.297,-8.179,-32.288
0.038,-1.222,0.036,35.828,-10.681,-23.560
0.114,-1.256,0.038,43.945,-9.399,-12.329
0.159,-1.238,0.026,52.490,-9.460,-4.456
0.148,-1.196,0.012,56.335,-12.878,-0.305
0.156,-1.158,-0.001,60.059,-13.245,3.723
0.180,-1.148,-0.019,60.303,-11.536,5.066
0.186,-1.140,-0.023,54.016,-10.559,1.587
0.182,-1.136,-0.042,45.715,-8.728,-2.991
0.192,-1.147,-0.060,37.842,-5.859,-6.287
0.193,-1.166,-0.073,31.982,-3.601,-8.911
0.205,-1.167,-0.111,28.320,-2.441,-10.559
0.206,-1.161,-0.141,27.710,-2.686,-10.742
0.210,-1.158,-0.156,29.907,-2.686,-10.437
0.211,-1.155,-0.158,33.020,-3.540,-10.437
0.199,-1.153,-0.160,36.377,-4.822,-10.620
0.198,-1.153,-0.152,38.513,-5.859,-10.803
0.170,-1.143,-0.127,38.391,-5.920,-10.925
0.154,-1.168,-0.131,36.377,-5.127,-11.047
0.129,-1.179,-0.128,31.311,-5.737,-14.832
0.088,-1.162,-0.128,21.851,-3.357,-18.494
0.135,-1.162,-0.156,17.517,0.549,-16.357
0.143,-1.141,-0.178,16.235,2.563,-16.113
0.150,-1.105,-0.208,15.381,2.136,-16.663
0.149,-1.074,-0.213,19.409,0.427,-14.893
0.135,-1.063,-0.207,25.635,-2.380,-13.062
0.108,-1.081,-0.190,30.762,-4.761,-11.536
0.062,-1.119,-0.157,31.616,-6.592,-12.573
0.051,-1.181,-0.118,26.184,-6.409,-15.381
0.036,-1.216,-0.107,16.113,-4.272,-18.066
0.051,-1.218,-0.126,6.470,-0.061,-18.127
0.066,-1.185,-0.162,0.793,2.625,-16.235
0.089,-1.147,-0.190,-0.366,3.113,-13.611
0.102,-1.109,-0.204,3.723,1.038,-9.888
0.110,-1.074,-0.209,11.292,-2.197,-5.981
0.106,-1.050,-0.196,20.081,-5.615,-2.258
0.082,-1.036,-0.159,27.039,-8.850,0.427
0.069,-1.038,-0.126,29.724,-10.193,1.160
0.066,-1.038,-0.107,27.649,-9.399,0.427
0.065,-1.027,-0.099,22.217,-7.446,-0.793
0.080,-0.999,-0.099,15.808,-4.761,-1.465
0.095,-0.960,-0.120,11.292,-1.953,-1.831
0.101,-0.926,-0.146,10.864,-1.038,-2.502
0.101,-0.916,-0.162,13.428,-1.343,-3.906
0.097,-0.939,-0.166,16.602,-2.075,-5.310
0.090,-0.964,-0.167,18.555,-2.625,-6.104
0.079,-0.987,-0.175,18.982,-2.258,-6.348
0.083,-1.002,-0.182,17.883,-1.831,-6.348
0.082,-0.997,-0.178,16.235,-1.526,-6.226
0.078,-0.994,-0.180,14.709,-1.160,-6.226
0.081,-0.989,-0.189,14.832,-0.183,-6.104
0.080,-0.981,-0.203,14.160,0.366,-6.287
0.072,-0.984,-0.218,12.695,0.427,-7.202
0.065,-1.000,-0.231,10.925,0.000,-8.545
0.056,-1.033,-0.228,7.568,-0.610,-10.315
0.063,-1.068,-0.216,4.700,-0.305,-10.925
0.061,-1.068,-0.216,3.357,-0.061,-9.460
0.065,-1.055,-0.226,2.136,0.488,-7.751
0.071,-1.051,-0.232,2.563,0.244,-6.775
0.074,-1.044,-0.238,4.944,-1.282,-5.981
0.071,-1.036,-0.235,7.996,-3.113,-4.883
0.059,-1.039,-0.229,10.620,-4.761,-3.479
0.047,-1.057,-0.204,12.756,-5.859,-2.747
0.037,-1.074,-0.185,11.902,-5.676,-2.441
0.039,-1.080,-0.180,8.301,-4.761,-2.747
0.034,-1.082,-0.184,4.517,-3.967,-2.869
0.034,-1.076,-0.186,0.793,-2.991,-2.930
0.040,-1.070,-0.196,-1.526,-1.831,-2.258
0.050,-1.051,-0.210,-2.075,-1.038,-0.916
0.052,-1.031,-0.223,-1.160,-1.160,0.183
0.056,-1.014,-0.214,1.465,-2.258,1.343
0.038,-1.001,-0.201,5.432,-3.235,2.258
0.062,-1.007,-0.189,9.583,-3.601,2.869
0.043,-1.017,-0.184,10.315,-4.333,1.770
0.030,-1.023,-0.171,8.118,-4.822,-0.183
0.031,-1.030,-0.158,4.395,-4.028,-1.465
0.028,-1.026,-0.157,1.160,-2.197,-2.441
0.029,-1.011,-0.165,-0.732,0.000,-2.563
0.047,-1.000,-0.183,-1.831,2.136,-2.380
0.053,-0.985,-0.198,-1.099,2.502,-2.502
0.050,-0.975,-0.207,0.549,1.465,-3.113
0.052,-0.978,-0.217,2.991,1.038,-3.235
0.034,-0.983,-0.215,4.089,0.305,-3.784

-0.773,-2.679,0.196,-82.275,-6.775,-104.797
-0.949,-3.248,0.364,-106.750,-1.770,-117.188
-1.110,-3.744,0.485,-134.766,10.193,-117.981
-1.121,-4.000,0.515,-162.048,32.104,-102.234
-1.028,-4.000,0.481,-171.387,54.565,-65.796
-0.931,-4.000,0.390,-146.118,69.153,-6.897
-0.887,-3.869,0.244,-91.248,73.425,66.101
-0.869,-3.413,0.176,-27.771,65.308,138.062
-0.884,-2.943,0.141,29.419,50.476,199.219
-0.869,-2.483,0.132,75.928,35.095,245.056
-0.864,-2.076,0.089,99.548,26.611,279.663
-0.974,-1.400,-0.026,84.595,25.269,304.138
-0.850,-0.534,-0.221,28.320,37.903,314.026
-0.562,0.369,-0.431,-37.476,54.810,302.368
-0.247,1.097,-0.631,-78.674,61.035,270.142
-0.036,1.542,-0.797,-83.984,55.908,229.919
0.125,1.771,-0.908,-63.538,46.814,194.885
0.315,1.908,-0.987,-38.330,36.987,169.189
0.335,2.083,-1.067,-20.935,22.949,142.761
0.433,2.124,-1.063,-11.963,10.315,114.319
0.402,2.074,-1.060,-7.690,-1.770,81.299
0.461,1.835,-0.883,-5.432,-4.578,47.913
0.418,1.566,-0.722,-1.160,-5.859,20.081
0.390,1.324,-0.582,-0.427,-8.911,-1.221
0.351,1.126,-0.485,-2.136,-7.996,-19.897
0.304,0.920,-0.430,-2.258,-9.094,-38.757
0.239,0.636,-0.332,-2.136,-13.306,-57.495
0.171,0.294,-0.183,-1.343,-18.677,-73.792
0.088,-0.048,-0.033,0.305,-20.691,-83.740
0.020,-0.335,0.069,2.441,-18.799,-85.510
-0.014,-0.529,0.108,2.258,-14.038,-81.970
-0.024,-0.672,0.102,2.197,-9.521,-76.416
-0.031,-0.818,0.102,5.676,-8.484,-70.618
-0.049,-0.975,0.107,8.667,-9.216,-66.284
-0.056,-1.130,0.095,9.399,-10.620,-62.012
-0.064,-1.237,0.080,7.874,-10.376,-55.786
-0.044,-1.291,0.036,4.272,-8.789,-46.692
0.006,-1.294,0.021,0.916,-6.714,-36.804
0.038,-1.254,-0.016,1.526,-5.798,-27.832
0.097,-1.241,-0.031,7.935,-6.775,-17.883
0.132,-1.223,-0.048,16.174,-7.263,-10.803
0.119,-1.182,-0.012,20.386,-9.949,-7.507
0.146,-1.141,0.027,25.452,-11.353,-2.502
0.143,-1.115,0.062,28.503,-10.437,0.183
0.150,-1.114,0.069,29.114,-8.057,0.061
0.153,-1.116,0.048,25.757,-5.432,-2.380
0.149,-1.113,0.030,18.860,-1.526,-6.165
0.182,-1.120,0.006,12.756,3.418,-8.850
0.208,-1.122,-0.023,8.423,5.554,-11.475
0.212,-1.106,-0.037,6.653,6.531,-14.038
0.211,-1.091,-0.065,8.606,6.042,-15.198
0.210,-1.083,-0.094,13.428,6.042,-15.808
0.187,-1.086,-0.127,18.250,5.310,-16.663
0.166,-1.122,-0.138,20.935,3.235,-18.860
0.144,-1.181,-0.124,20.813,1.343,-21.606
0.100,-1.193,-0.116,19.043,1.404,-21.851
0.149,-1.192,-0.139,16.724,4.395,-18.311
0.169,-1.157,-0.155,14.343,4.028,-17.273
0.141,-1.075,-0.169,12.207,3.540,-17.578
0.189,-1.038,-0.193,18.250,4.089,-12.329
0.179,-1.018,-0.192,27.222,2.014,-10.254
0.134,-1.019,-0.161,28.748,-2.075,-13.733
0.108,-1.043,-0.135,25.574,-2.930,-18.066
0.078,-1.078,-0.124,18.921,-1.709,-22.095
0.079,-1.108,-0.134,10.803,1.038,-24.475
0.084,-1.113,-0.159,2.991,3.967,-25.818
0.095,-1.092,-0.194,-2.808,5.920,-25.818
0.111,-1.054,-0.234,-4.211,6.470,-23.865
0.131,-1.018,-0.256,-0.488,5.493,-20.691
0.134,-1.001,-0.250,7.019,1.892,-17.761
0.096,-1.007,-0.216,16.418,-3.845,-16.296
0.077,-1.042,-0.170,22.217,-7.996,-16.602
0.060,-1.082,-0.135,23.376,-9.583,-16.968
0.046,-1.107,-0.111,21.301,-9.460,-16.663
0.042,-1.096,-0.112,16.602,-7.812,-15.259
0.042,-1.059,-0.120,11.597,-6.226,-13.306
0.056,-1.009,-0.126,8.606,-4.822,-11.597
0.060,-0.975,-0.141,8.484,-4.883,-11.169
0.048,-0.983,-0.145,10.803,-5.798,-12.024
0.035,-1.017,-0.133,12.512,-6.653,-13.733
0.022,-1.050,-0.126,11.475,-6.958,-14.954
0.019,-1.063,-0.132,8.301,-6.958,-15.137
0.021,-1.059,-0.142,6.104,-6.409,-13.611
0.035,-1.044,-0.134,5.432,-6.042,-11.230
0.035,-1.015,-0.138,7.446,-6.409,-8.484
0.035,-0.987,-0.135,12.024,-6.897,-6.104
0.041,-0.970,-0.136,16.663,-6.958,-4.028
0.034,-0.965,-0.129,19.531,-7.507,-3.906
0.011,-0.976,-0.114,20.325,-8.545,-5.249
-0.001,-0.998,-0.108,18.127,-8.179,-7.202
-0.003,-1.018,-0.112,14.709,-6.958,-8.911
0.011,-1.035,-0.119,11.658,-5.249,-9.155
0.021,-1.030,-0.139,8.789,-3.784,-8.240
0.021,-0.997,-0.149,6.348,-2.930,-7.385
0.036,-0.965,-0.155,7.019,-2.258,-6.348
0.034,-0.938,-0.162,10.681,-3.235,-5.920
0.003,-0.939,-0.161,15.259,-5.066,-6.775
-0.008,-0.978,-0.154,16.968,-6.104,-8.972
-0.010,-1.035,-0.144,15.991,-6.409,-11.230
-0.017,-1.067,-0.143,12.451,-5.981,-12.512
-0.011,-1.070,-0.155,8.911,-4.150,-12.268
-0.002,-1.061,-0.167,7.019,-2.930,-11.108
0.006,-1.049,-0.172,7.324,-2.869,-9.521
0.013,-1.042,-0.173,9.766,-3.174,-7.446
0.014,-1.016,-0.169,12.268,-3.662,-5.554
-0.008,-0.990,-0.167,14.832,-4.700,-4.089
0.000,-0.993,-0.160,17.212,-5.554,-3.967
-0.019,-1.006,-0.148,16.846,-5.920,-5.920
-0.013,-1.036,-0.145,15.076,-5.310,-7.385
-0.007,-1.042,-0.153,11.963,-3.540,-7.812
0.002,-1.030,-0.172,8.545,-2.136,-7.629
0.006,-1.010,-0.189,6.775,-1.282,-7.324
0.008,-1.001,-0.196,8.118,-1.404,-6.531
0.002,-1.001,-0.196,11.353,-2.502,-6.104
-0.010,-1.008,-0.187,14.221,-3.418,-6.042
-0.023,-1.034,-0.173,14.832,-4.211,-6.470
-0.031,-1.065,-0.160,13.123,-4.578,-7.263
-0.032,-1.084,-0.161,9.644,-3.723,-7.629
-0.031,-1.080,-0.173,6.104,-2.014,-7.263

-0.431,-2.524,-0.212,-71.716,-4.456,-69.885
-0.471,-2.902,-0.201,-87.280,0.732,-74.463
-0.477,-3.204,-0.222,-105.774,8.240,-67.566
-0.456,-3.317,-0.262,-120.239,15.137,-44.556
-0.383,-3.202,-0.316,-121.277,21.057,-4.639
-0.326,-2.917,-0.384,-99.182,21.240,45.105
-0.240,-2.591,-0.384,-59.753,13.000,95.459
-0.231,-2.245,-0.360,-18.066,1.343,138.306
-0.193,-1.857,-0.315,16.113,-7.874,173.340
-0.162,-1.446,-0.314,37.781,-15.442,200.012
-0.141,-1.028,-0.292,43.274,-22.095,215.210
-0.137,-0.521,-0.220,28.076,-27.405,219.543
-0.096,0.023,-0.138,-5.371,-27.649,209.961
0.007,0.449,-0.099,-38.147,-19.226,185.791
0.099,0.720,-0.140,-59.998,-10.498,152.466
0.197,0.822,-0.199,-72.205,-3.296,116.699
0.278,0.735,-0.253,-71.472,0.977,85.632
0.389,0.582,-0.283,-65.613,2.808,61.707
0.267,0.510,-0.345,-62.622,0.000,40.894
0.284,0.409,-0.328,-59.204,-0.183,28.748
0.199,0.322,-0.417,-48.889,-1.038,22.705
0.222,0.137,-0.367,-36.865,3.174,17.639
0.213,0.012,-0.322,-28.931,-0.061,12.878
0.149,-0.079,-0.249,-22.644,-8.484,9.216
0.145,-0.190,-0.177,-13.550,-9.521,8.850
0.136,-0.275,-0.087,-6.714,-9.521,8.362
0.129,-0.323,-0.013,-7.935,-9.827,6.104
0.128,-0.341,0.012,-11.902,-7.935,1.831
0.137,-0.399,0.025,-15.991,-5.066,-3.296
0.150,-0.469,0.033,-19.775,-3.418,-7.568
0.170,-0.500,0.026,-23.376,-1.770,-9.949
0.199,-0.510,0.044,-23.071,-1.404,-10.193
0.214,-0.540,0.099,-17.639,-3.357,-10.864
0.197,-0.583,0.152,-8.362,-5.798,-12.024
0.180,-0.630,0.188,0.122,-6.226,-12.695
0.167,-0.663,0.234,4.700,-4.211,-13.733
0.169,-0.677,0.221,7.202,-1.526,-14.771
0.179,-0.699,0.207,9.644,0.427,-16.235
0.169,-0.726,0.198,11.475,2.869,-19.165
0.170,-0.751,0.188,13.550,4.395,-20.813
0.167,-0.766,0.162,15.076,5.981,-21.362
0.169,-0.792,0.141,17.212,7.629,-22.156
0.156,-0.826,0.113,18.433,8.362,-23.926
0.155,-0.853,0.082,19.348,10.315,-24.902
0.165,-0.862,0.032,20.142,12.634,-24.231
0.176,-0.859,-0.011,21.423,13.672,-23.071
0.186,-0.841,-0.048,22.217,13.794,-22.644
0.196,-0.825,-0.070,23.071,13.184,-22.400
0.198,-0.823,-0.092,25.574,12.085,-22.156
0.178,-0.833,-0.094,26.428,10.620,-22.705
0.174,-0.861,-0.112,25.269,10.559,-23.682
0.248,-0.917,-0.086,21.851,8.301,-26.794
0.130,-0.858,-0.079,15.442,5.676,-30.457
0.208,-0.845,-0.091,13.794,9.583,-27.039
0.202,-0.819,-0.102,14.343,9.888,-26.672
0.195,-0.825,-0.120,16.052,7.568,-28.137
0.184,-0.855,-0.123,18.250,6.653,-29.907
0.153,-0.880,-0.119,17.578,5.249,-32.654
0.137,-0.912,-0.109,15.930,4.761,-34.668
0.144,-0.962,-0.104,14.709,5.432,-35.828
0.139,-0.990,-0.100,14.343,5.310,-35.461
0.134,-0.990,-0.098,15.381,4.822,-33.447
0.136,-0.975,-0.102,19.409,4.456,-30.151
0.125,-0.983,-0.109,24.963,2.930,-27.771
0.090,-1.006,-0.102,29.663,0.732,-27.283
0.067,-1.052,-0.086,30.334,-0.183,-28.015
0.059,-1.081,-0.083,27.710,1.099,-28.687
0.057,-1.092,-0.090,23.437,3.113,-29.236
0.061,-1.092,-0.110,19.958,5.005,-29.358
0.071,-1.091,-0.123,19.043,5.981,-28.320
0.078,-1.087,-0.128,21.301,5.310,-26.733
0.080,-1.097,-0.118,26.123,3.235,-24.902
0.061,-1.109,-0.114,31.555,1.038,-22.522
0.041,-1.132,-0.105,35.583,-0.305,-20.142
0.007,-1.151,-0.096,36.194,-0.366,-18.677
0.009,-1.178,-0.088,31.189,1.343,-19.531
0.005,-1.192,-0.092,22.644,3.967,-21.240
0.009,-1.186,-0.114,15.137,6.653,-21.790
0.031,-1.161,-0.150,10.864,9.644,-20.691
0.044,-1.131,-0.176,10.864,10.681,-18.738
0.062,-1.123,-0.182,15.198,9.827,-16.174
0.076,-1.110,-0.177,21.240,7.690,-12.573
0.063,-1.097,-0.161,28.198,4.639,-8.545
0.027,-1.089,-0.144,33.875,1.709,-6.409
0.006,-1.110,-0.134,34.973,1.648,-7.019
-0.005,-1.138,-0.135,31.372,3.235,-8.606
0.001,-1.154,-0.156,24.109,5.737,-10.315
0.003,-1.130,-0.176,16.357,8.301,-10.010
0.037,-1.115,-0.206,10.986,10.437,-8.179
0.044,-1.072,-0.230,8.423,10.132,-7.935
0.028,-1.042,-0.234,8.545,8.057,-7.324
0.045,-1.035,-0.234,12.939,6.653,-5.615
0.036,-1.042,-0.226,17.029,5.005,-5.493
0.024,-1.056,-0.216,19.104,3.479,-5.493
0.009,-1.083,-0.199,18.982,2.686,-5.981
-0.000,-1.106,-0.187,16.174,3.235,-6.409
0.001,-1.114,-0.190,12.329,5.127,-6.165
0.015,-1.092,-0.201,7.507,7.385,-5.432
0.022,-1.057,-0.221,5.676,7.812,-4.150
0.038,-1.033,-0.240,6.409,7.690,-2.808
0.046,-1.021,-0.248,9.216,6.042,-1.709
0.036,-1.010,-0.249,11.780,3.601,-0.916
0.036,-1.008,-0.237,13.733,2.075,-0.244
0.027,-1.001,-0.224,15.808,0.427,-0.122
0.031,-1.002,-0.220,15.869,-0.244,-0.427
0.030,-1.002,-0.220,15.320,-0.427,-1.221
0.038,-1.001,-0.217,14.099,-0.488,-1.709
0.035,-0.984,-0.208,12.512,-0.427,-1.953
0.039,-0.960,-0.208,11.536,0.488,-1.709
0.039,-0.943,-0.206,11.841,0.977,-1.343
0.028,-0.942,-0.208,11.963,1.099,-2.258
0.020,-0.958,-0.213,10.498,1.526,-3.601
-0.003,-0.981,-0.217,7.874,1.648,-5.188
0.011,-1.006,-0.211,4.272,2.686,-6.042
-0.001,-1.004,-0.212,-0.732,3.784,-6.409
0.016,-0.997,-0.227,-3.784,5.249,-6.165
0.026,-0.990,-0.250,-2.808,5.920,-5.249
0.041,-0.975,-0.270,-0.549,5.554,-3.784
0.045,-0.958,-0.274,3.601,3.784,-2.075

-0.499,-2.494,0.064,-63.110,0.305,-31.006
-0.530,-2.768,0.088,-95.581,12.268,-38.147
-0.522,-2.992,0.092,-124.634,25.940,-38.147
-0.467,-3.107,0.072,-141.907,35.950,-26.001
-0.400,-3.000,0.002,-145.264,44.128,-0.854
-0.344,-2.683,-0.085,-126.587,47.180,35.034
-0.214,-2.354,-0.179,-83.679,42.603,72.937
-0.120,-2.075,-0.233,-28.992,29.480,102.478
-0.111,-1.832,-0.202,22.705,11.536,125.244
-0.108,-1.608,-0.140,65.002,-2.136,144.836
-0.130,-1.342,-0.108,85.815,-10.742,160.095
-0.147,-1.014,-0.088,81.726,-13.977,168.762
-0.128,-0.669,-0.088,57.312,-11.230,169.617
-0.054,-0.328,-0.071,21.362,-4.211,162.598
-0.019,-0.006,-0.066,-14.771,3.784,148.743
0.007,0.290,-0.103,-49.744,14.587,129.089
0.085,0.534,-0.229,-82.458,29.663,107.239
0.210,0.686,-0.397,-100.769,41.931,85.571
0.306,0.726,-0.557,-102.478,44.189,63.965
0.293,0.699,-0.615,-90.820,38.269,45.227
0.323,0.565,-0.609,-66.772,30.273,37.781
0.292,0.431,-0.544,-40.344,20.874,34.912
0.292,0.305,-0.449,-19.653,15.869,33.508
0.236,0.185,-0.333,-5.920,5.127,30.762
0.174,0.025,-0.183,3.540,-2.197,25.391
0.138,-0.142,-0.046,7.751,-3.479,20.569
0.102,-0.262,0.070,-1.160,0.061,12.878
0.091,-0.332,0.102,-19.470,7.751,3.845
0.137,-0.392,0.040,-35.645,15.930,-4.089
0.177,-0.448,-0.039,-44.861,20.569,-11.108
0.206,-0.496,-0.098,-44.556,19.287,-14.160
0.219,-0.542,-0.116,-36.011,14.099,-13.123
0.221,-0.594,-0.102,-22.583,7.080,-9.399
0.183,-0.636,-0.051,-9.521,0.305,-6.165
0.181,-0.704,0.005,-0.549,-3.967,-3.357
0.168,-0.752,0.043,3.784,-4.822,-2.502
0.180,-0.807,0.049,2.930,-3.357,-2.075
0.184,-0.830,0.039,1.526,-1.892,-1.160
0.199,-0.851,0.042,-1.404,0.854,-1.892
0.221,-0.873,0.040,-2.441,2.747,-2.563
0.233,-0.891,0.032,-2.808,3.418,-3.296
0.245,-0.907,0.018,-2.380,3.723,-3.906
0.245,-0.922,0.007,0.122,2.808,-3.784
0.247,-0.937,-0.002,2.808,1.526,-3.845
0.252,-0.960,-0.008,5.493,0.183,-3.906
0.249,-0.974,-0.004,10.071,-0.732,-3.113
0.253,-0.971,-0.008,14.343,-1.221,-1.404
0.263,-0.960,-0.010,17.639,-1.343,-0.366
0.282,-0.948,-0.003,20.020,-1.709,-0.671
0.266,-0.941,-0.001,20.264,-4.028,-2.869
0.221,-0.933,0.001,18.921,-3.723,-5.615
0.295,-0.965,0.000,16.418,-0.977,-6.897
0.284,-0.996,-0.000,11.719,-0.305,-11.658
0.227,-1.019,-0.034,4.028,-0.427,-18.127
0.253,-1.036,-0.063,-2.747,2.075,-19.348
0.261,-1.016,-0.116,-5.188,3.967,-18.005
0.266,-1.001,-0.146,-5.371,3.235,-17.029
0.277,-0.995,-0.153,-2.502,1.038,-16.113
0.264,-0.992,-0.147,1.221,-2.075,-15.930
0.250,-0.993,-0.134,5.432,-4.944,-15.381
0.244,-0.988,-0.118,8.789,-6.470,-14.343
0.232,-0.983,-0.111,10.132,-7.568,-14.038
0.223,-0.979,-0.091,10.376,-7.996,-13.977
0.213,-0.984,-0.075,8.911,-8.179,-14.954
0.205,-0.991,-0.064,6.653,-7.690,-15.808
0.200,-0.986,-0.057,4.211,-6.775,-16.052
0.199,-0.960,-0.059,1.953,-5.615,-15.930
0.201,-0.933,-0.060,1.282,-4.822,-15.625
0.206,-0.915,-0.061,3.174,-4.700,-15.686
0.200,-0.909,-0.055,6.042,-5.798,-15.869
0.193,-0.906,-0.038,9.583,-7.141,-15.869
0.171,-0.907,-0.020,11.963,-8.606,-16.174
0.154,-0.936,-0.002,12.695,-9.216,-17.090
0.142,-0.958,0.010,12.634,-8.728,-17.517
0.141,-0.970,0.016,10.986,-7.141,-17.456
0.142,-0.967,0.012,8.362,-5.249,-17.151
0.141,-0.952,-0.001,6.653,-3.723,-17.151
0.155,-0.939,-0.017,6.165,-2.197,-17.578
0.154,-0.934,-0.023,6.348,-2.014,-18.494
0.141,-0.941,-0.030,9.094,-2.930,-18.738
0.126,-0.968,-0.030,12.024,-3.845,-18.616
0.111,-1.007,-0.025,13.000,-4.883,-19.043
0.092,-1.031,-0.024,11.780,-5.127,-18.860
0.100,-1.032,-0.021,9.766,-3.540,-17.395
0.103,-1.013,-0.027,8.301,-2.197,-15.747
0.125,-0.996,-0.031,8.423,-1.221,-13.855
0.172,-0.976,-0.040,10.803,-0.854,-12.268
0.125,-0.938,-0.051,14.038,-3.174,-12.512
0.147,-0.937,-0.052,19.287,-4.456,-11.353
0.122,-0.945,-0.042,24.292,-6.531,-11.414
0.109,-0.980,-0.030,25.574,-7.568,-12.939
0.098,-1.003,-0.016,23.560,-7.385,-13.977
0.096,-0.998,-0.020,19.470,-5.798,-14.587
0.109,-0.990,-0.036,16.541,-3.662,-14.709
0.115,-0.978,-0.046,15.320,-2.441,-14.893
0.126,-0.959,-0.060,15.442,-1.465,-14.343
0.132,-0.930,-0.082,17.151,-1.282,-13.245
0.130,-0.919,-0.097,20.264,-2.808,-12.939
0.111,-0.937,-0.081,21.790,-5.005,-14.709
0.098,-0.986,-0.052,20.935,-6.104,-17.395
0.078,-1.049,-0.027,18.677,-6.104,-19.226
0.049,-1.088,-0.001,13.916,-4.700,-20.081
0.041,-1.083,-0.005,5.554,-1.038,-20.264
0.055,-1.068,-0.040,-0.793,3.418,-20.142
0.078,-1.052,-0.092,-2.625,6.287,-19.348
0.105,-1.021,-0.147,-0.854,6.226,-17.273
0.100,-1.001,-0.166,3.723,3.235,-15.503
0.084,-1.030,-0.138,10.437,-1.221,-13.794
0.058,-1.071,-0.089,15.381,-4.333,-12.268
0.036,-1.098,-0.051,15.259,-4.883,-11.536
0.029,-1.102,-0.029,11.841,-3.052,-11.230
0.030,-1.093,-0.045,6.714,-0.427,-11.108
0.039,-1.069,-0.072,2.075,2.563,-10.803
0.055,-1.034,-0.102,0.977,4.395,-9.155
0.073,-0.986,-0.133,3.906,4.395,-6.775
0.077,-0.955,-0.152,10.254,1.831,-5.066
0.068,-0.947,-0.146,17.639,-1.892,-4.150
0.046,-0.968,-0.120,22.156,-5.188,-4.456
0.024,-0.992,-0.089,22.278,-6.775,-5.493

-0.263,-2.402,-0.218,-53.223,8.484,-39.856
-0.313,-2.662,-0.188,-65.063,10.864,-39.978
-0.315,-2.862,-0.183,-77.881,16.113,-34.424
-0.319,-2.922,-0.195,-87.830,21.057,-21.973
-0.313,-2.872,-0.216,-89.905,24.109,-4.089
-0.276,-2.752,-0.255,-82.886,26.611,17.578
-0.254,-2.575,-0.310,-67.932,27.100,40.466
-0.184,-2.403,-0.359,-53.101,24.780,62.134
-0.140,-2.180,-0.378,-40.894,21.057,82.092
-0.142,-1.905,-0.414,-31.189,16.785,101.379
-0.099,-1.635,-0.437,-24.658,13.733,118.164
-0.072,-1.358,-0.440,-23.926,9.583,129.700
-0.049,-1.046,-0.452,-26.978,5.249,139.099
0.011,-0.746,-0.465,-31.738,1.892,145.935
0.077,-0.449,-0.413,-35.645,-3.052,148.926
0.089,-0.153,-0.327,-39.429,-8.362,146.057
0.098,0.103,-0.251,-40.649,-10.559,138.489
0.101,0.316,-0.214,-36.987,-10.620,129.333
0.208,0.386,-0.212,-31.982,-10.437,116.272
0.132,0.518,-0.178,-34.241,-13.306,96.191
0.117,0.600,-0.102,-46.875,-12.329,77.393
0.139,0.607,-0.096,-58.105,-7.202,59.448
0.213,0.546,-0.042,-65.002,4.761,39.490
0.237,0.486,-0.058,-67.505,8.484,22.217
0.253,0.413,-0.063,-61.218,7.202,10.010
0.232,0.343,-0.096,-51.208,5.737,0.793
0.237,0.291,-0.108,-38.330,3.967,-3.906
0.202,0.246,-0.091,-26.123,0.305,-7.751
0.188,0.174,-0.060,-13.184,-5.249,-11.841
0.172,0.080,0.003,-1.770,-8.606,-17.578
0.137,-0.029,0.063,6.226,-10.437,-22.705
0.109,-0.123,0.113,9.949,-9.338,-26.062
0.092,-0.185,0.130,6.897,-5.859,-29.480
0.115,-0.217,0.116,1.709,-0.366,-32.837
0.142,-0.259,0.092,0.061,3.723,-36.133
0.136,-0.292,0.056,2.747,3.540,-39.734
0.132,-0.352,0.048,10.010,2.869,-40.894
0.140,-0.426,0.050,20.325,2.502,-40.161
0.128,-0.495,0.075,28.748,1.404,-39.795
0.087,-0.552,0.071,35.156,-1.221,-39.612
0.081,-0.647,0.057,38.086,1.160,-41.504
0.040,-0.746,0.037,33.081,3.784,-46.936
0.019,-0.865,0.031,25.513,6.531,-50.781
0.033,-0.950,0.013,16.174,10.620,-51.941
0.079,-0.989,-0.033,6.958,14.648,-51.147
0.092,-0.971,-0.107,2.563,15.137,-49.316
0.132,-0.949,-0.164,5.310,13.916,-45.593
0.144,-0.965,-0.184,15.503,8.789,-42.297
0.113,-1.025,-0.153,27.405,0.977,-40.466
0.043,-1.111,-0.104,35.217,-4.333,-39.246
0.107,-1.216,-0.042,36.560,-4.578,-36.804
0.090,-1.230,-0.014,31.860,-3.662,-35.339
0.010,-1.193,-0.047,23.621,-2.563,-35.217
0.067,-1.165,-0.052,17.639,0.854,-33.081
0.073,-1.135,-0.097,19.409,2.686,-30.029
0.068,-1.133,-0.112,22.827,0.610,-28.992
0.079,-1.149,-0.127,26.001,-0.732,-27.222
0.071,-1.151,-0.133,28.320,-2.563,-25.452
0.077,-1.126,-0.147,30.090,-3.845,-22.522
0.082,-1.094,-0.157,33.142,-5.249,-19.775
0.070,-1.083,-0.148,37.903,-7.446,-18.311
0.051,-1.095,-0.119,41.992,-9.399,-18.188
0.029,-1.121,-0.098,43.274,-10.010,-18.616
0.004,-1.150,-0.087,41.321,-8.850,-18.860
-0.013,-1.179,-0.090,36.804,-6.714,-18.860
-0.013,-1.191,-0.109,29.541,-3.845,-18.860
0.001,-1.192,-0.141,23.315,-1.404,-18.005
0.015,-1.182,-0.170,19.226,-0.061,-16.418
0.031,-1.175,-0.204,18.860,-0.366,-13.367
0.023,-1.154,-0.212,22.278,-1.892,-9.644
0.018,-1.150,-0.200,26.611,-4.150,-7.263
0.005,-1.161,-0.183,29.053,-4.944,-6.470
0.001,-1.185,-0.161,30.029,-5.127,-5.920
-0.011,-1.188,-0.146,29.236,-5.310,-5.371
-0.003,-1.175,-0.123,26.978,-4.272,-4.517
0.011,-1.156,-0.144,26.184,-3.174,-2.563
0.013,-1.121,-0.167,24.780,-2.869,-1.526
0.017,-1.094,-0.176,22.827,-3.784,-1.953
0.021,-1.088,-0.169,21.545,-4.944,-3.113
0.011,-1.103,-0.158,21.606,-5.371,-4.272
0.001,-1.141,-0.141,20.996,-5.188,-5.127
-0.003,-1.165,-0.135,18.433,-3.296,-5.310
0.005,-1.165,-0.154,14.832,-0.549,-4.395
0.018,-1.148,-0.192,12.146,1.770,-2.380
0.032,-1.109,-0.234,11.475,2.441,-0.183
0.048,-1.073,-0.269,12.817,1.343,2.197
0.048,-1.046,-0.272,16.235,-1.770,4.150
0.038,-1.043,-0.244,21.057,-4.883,5.920
0.046,-1.046,-0.218,24.292,-6.042,7.324
0.013,-1.026,-0.206,23.926,-5.737,7.935
0.046,-1.006,-0.202,22.034,-3.967,8.240
0.047,-0.992,-0.219,20.325,-3.174,7.141
0.031,-0.971,-0.222,17.944,-3.418,4.456
0.029,-0.956,-0.220,15.625,-3.418,3.601
0.055,-0.960,-0.222,14.954,-2.686,2.625
0.029,-0.972,-0.219,12.817,-3.357,-0.854
0.023,-0.999,-0.213,10.376,-3.174,-3.418
0.030,-1.011,-0.218,7.874,-1.770,-4.333
0.031,-1.005,-0.231,6.409,-0.732,-4.517
0.044,-1.004,-0.251,6.775,0.000,-4.456
0.041,-1.004,-0.259,7.690,-0.916,-4.700
0.041,-1.007,-0.257,10.376,-2.380,-4.456
0.038,-1.006,-0.250,13.123,-3.845,-3.479
0.031,-1.008,-0.235,14.587,-5.188,-2.869
0.023,-1.001,-0.224,14.709,-5.920,-2.930
0.033,-1.021,-0.224,13.855,-5.615,-2.686
0.019,-1.006,-0.218,11.597,-5.188,-3.540
0.016,-1.014,-0.219,10.498,-4.761,-4.700
0.011,-1.042,-0.212,10.254,-4.333,-5.371
0.002,-1.060,-0.203,7.812,-3.540,-5.981
0.008,-1.060,-0.211,4.517,-1.892,-5.798
0.015,-1.045,-0.229,2.747,-0.732,-5.249
0.021,-1.029,-0.248,2.625,-0.854,-4.333
0.029,-1.032,-0.260,4.883,-1.953,-2.930
0.024,-1.018,-0.264,7.874,-3.357,-1.343
0.026,-1.006,-0.260,10.864,-5.066,0.366
0.026,-1.009,-0.248,13.855,-6.226,1.770
0.018,-1.006,-0.237,15.442,-6.775,2.808
0.014,-0.999,-0.231,14.954,-6.714,3.662

-0.370,-2.471,-0.456,-6.775,6.226,-61.646
-0.486,-2.821,-0.525,-17.700,7.446,-61.584
-0.535,-3.178,-0.555,-37.903,9.460,-60.608
-0.523,-3.475,-0.568,-64.270,15.869,-52.795
-0.444,-3.565,-0.619,-87.952,26.611,-28.625
-0.390,-3.363,-0.719,-104.065,36.804,8.179
-0.270,-2.973,-0.816,-109.131,43.335,48.645
-0.173,-2.563,-0.872,-99.670,41.504,84.106
-0.130,-2.171,-0.870,-79.895,30.701,110.901
-0.076,-1.841,-0.831,-59.998,19.653,130.371
-0.086,-1.560,-0.729,-45.532,8.789,144.165
-0.152,-1.298,-0.595,-45.776,0.793,152.405
-0.169,-0.954,-0.498,-71.045,1.587,155.090
-0.121,-0.545,-0.450,-109.741,9.399,151.611
-0.081,-0.173,-0.417,-138.489,16.724,142.151
-0.039,0.115,-0.385,-147.888,19.775,128.601
0.019,0.311,-0.369,-142.517,20.874,113.586
0.034,0.453,-0.350,-125.549,19.470,100.525
0.158,0.541,-0.407,-102.173,17.395,93.140
0.171,0.682,-0.451,-78.430,10.254,85.266
0.148,0.815,-0.389,-57.190,-0.671,77.148
0.173,0.851,-0.369,-31.677,-10.742,72.571
0.130,0.790,-0.228,-6.104,-15.747,64.148
0.135,0.684,-0.062,10.620,-11.536,51.758
0.094,0.594,0.070,14.526,-12.512,39.429
0.068,0.512,0.135,2.441,-6.836,21.118
0.106,0.406,0.122,-15.381,4.944,0.427
0.137,0.271,0.045,-26.733,14.526,-18.494
0.163,0.121,-0.056,-30.334,17.090,-31.372
0.166,-0.025,-0.125,-26.550,14.771,-38.818
0.165,-0.151,-0.170,-16.663,11.047,-38.696
0.157,-0.240,-0.179,-5.981,5.249,-33.691
0.146,-0.298,-0.142,1.587,0.366,-28.748
0.122,-0.344,-0.105,7.812,-4.700,-25.635
0.134,-0.421,-0.072,13.794,-7.751,-24.536
0.113,-0.506,-0.030,17.395,-10.986,-26.367
0.098,-0.589,0.010,17.578,-13.000,-29.053
0.049,-0.639,0.029,13.977,-12.451,-31.311
0.095,-0.732,0.041,10.986,-8.789,-30.334
0.073,-0.781,0.051,9.705,-6.409,-30.945
0.058,-0.842,0.038,7.385,-5.432,-30.640
0.083,-0.890,0.048,8.179,-2.380,-28.198
0.115,-0.950,0.015,9.521,-2.686,-25.024
0.113,-0.982,-0.007,12.695,-6.165,-22.156
0.113,-1.007,-0.020,17.273,-6.409,-19.348
0.126,-1.044,0.003,21.912,-6.226,-15.686
0.138,-1.053,0.017,25.879,-6.836,-11.963
0.124,-1.054,0.041,26.917,-6.775,-11.047
0.119,-1.059,0.046,26.917,-5.615,-11.292
0.123,-1.063,-0.003,24.170,-5.066,-13.550
0.130,-1.065,-0.043,20.386,-3.052,-15.808
0.149,-1.075,-0.086,17.822,-0.854,-16.724
0.152,-1.090,-0.111,17.029,-0.671,-16.907
0.122,-1.077,-0.128,16.846,-1.099,-16.174
0.215,-1.079,-0.125,17.212,-0.366,-13.977
0.184,-1.045,-0.114,18.982,-2.380,-13.672
0.121,-1.045,-0.120,21.240,-4.150,-15.503
0.143,-1.075,-0.112,20.447,-3.052,-16.602
0.120,-1.073,-0.135,19.226,-2.441,-16.785
0.116,-1.082,-0.146,16.724,-1.953,-16.663
0.123,-1.090,-0.158,13.672,-0.977,-16.785
0.108,-1.089,-0.155,9.399,-0.854,-18.616
0.105,-1.082,-0.158,6.653,-0.549,-19.165
0.117,-1.075,-0.166,7.629,-0.183,-18.372
0.124,-1.082,-0.171,10.925,-0.916,-16.785
0.107,-1.093,-0.171,13.855,-3.052,-15.320
0.090,-1.104,-0.172,15.137,-4.700,-13.733
0.079,-1.110,-0.166,14.771,-5.798,-12.024
0.066,-1.111,-0.164,13.245,-6.226,-10.315
0.061,-1.102,-0.157,12.268,-5.798,-8.606
0.069,-1.102,-0.156,11.230,-5.371,-6.775
0.069,-1.077,-0.156,9.521,-4.395,-5.920
0.075,-1.059,-0.150,9.338,-4.211,-5.371
0.078,-1.042,-0.135,10.620,-4.639,-4.089
0.074,-1.020,-0.117,12.878,-5.005,-2.319
0.078,-1.005,-0.116,16.357,-5.554,-0.427
0.097,-1.006,-0.108,20.935,-5.981,0.610
0.071,-1.007,-0.106,22.583,-6.836,0.122
0.061,-1.014,-0.099,21.667,-7.141,-1.282
0.059,-1.031,-0.101,18.677,-7.019,-3.601
0.051,-1.054,-0.095,14.832,-6.348,-5.981
0.050,-1.063,-0.088,12.329,-5.432,-6.714
0.058,-1.067,-0.087,9.399,-4.089,-6.836
0.059,-1.055,-0.107,9.155,-2.686,-6.226
0.066,-1.058,-0.134,11.475,-2.075,-5.005
0.070,-1.067,-0.142,14.343,-2.563,-2.258
0.066,-1.053,-0.141,16.846,-3.357,0.793
0.076,-1.036,-0.147,19.287,-3.174,3.418
0.059,-1.010,-0.152,20.935,-3.296,4.578
0.081,-1.021,-0.148,22.827,-2.930,5.188
0.091,-1.003,-0.134,23.682,-2.380,5.920
0.092,-0.981,-0.130,22.888,-2.869,5.127
0.088,-0.962,-0.135,22.522,-2.380,4.150
0.066,-0.959,-0.140,22.278,-1.709,2.869
0.080,-0.987,-0.143,21.118,-0.488,1.587
0.072,-1.002,-0.151,19.043,0.366,0.488
0.071,-1.002,-0.156,15.808,1.221,0.366
0.096,-0.985,-0.181,14.099,2.930,1.343
0.093,-0.973,-0.209,13.550,3.113,1.892
0.126,-0.942,-0.222,15.625,2.747,2.136
0.110,-0.927,-0.217,18.250,-0.244,0.488
0.106,-0.943,-0.201,23.132,-2.380,0.122
0.090,-0.964,-0.182,26.367,-3.784,0.000
0.077,-0.976,-0.156,25.757,-3.662,-0.305
0.061,-0.987,-0.140,24.780,-3.296,-0.916
0.055,-1.003,-0.142,21.423,-1.282,-2.869
0.055,-1.015,-0.159,15.564,1.465,-5.249
0.061,-1.025,-0.183,10.315,4.150,-6.287
0.077,-1.015,-0.217,6.775,5.737,-6.470
0.092,-1.008,-0.250,5.554,6.348,-6.104
0.102,-0.994,-0.271,7.385,4.517,-5.188
0.107,-0.985,-0.276,11.902,1.465,-3.601
0.093,-0.982,-0.250,17.456,-1.587,-1.587
0.091,-0.977,-0.242,21.790,-3.479,0.122
0.061,-0.971,-0.223,23.865,-5.127,0.061
0.051,-0.995,-0.205,22.095,-5.432,-2.502
0.048,-1.023,-0.190,17.700,-3.845,-5.249
0.046,-1.045,-0.193,13.062,-1.343,-6.653
0.062,-1.052,-0.209,8.606,1.953,-6.897

-0.283,-2.197,-0.291,-41.138,2.563,-25.940
-0.288,-2.338,-0.287,-51.941,7.690,-21.973
-0.294,-2.401,-0.316,-61.584,11.963,-12.451
-0.272,-2.426,-0.356,-69.275,15.869,0.183
-0.268,-2.386,-0.394,-76.111,19.836,16.663
-0.278,-2.297,-0.429,-79.895,19.714,34.302
-0.240,-2.178,-0.465,-82.092,19.165,50.842
-0.188,-2.020,-0.459,-77.698,19.348,68.848
-0.132,-1.829,-0.491,-62.927,17.395,89.172
-0.077,-1.595,-0.498,-47.974,12.756,108.521
-0.066,-1.318,-0.479,-33.875,5.249,124.084
-0.040,-1.050,-0.426,-18.188,-2.808,136.902
-0.006,-0.794,-0.341,-5.920,-9.094,145.081
0.000,-0.540,-0.271,-0.366,-12.695,148.193
0.025,-0.319,-0.193,-0.549,-13.489,147.827
0.074,-0.024,-0.134,-11.841,-11.658,141.846
0.158,0.323,-0.095,-32.410,-6.226,131.836
0.235,0.704,-0.059,-45.898,0.305,120.972
0.300,1.049,0.008,-47.729,4.272,105.835
0.370,1.238,0.086,-41.016,5.066,80.933
0.323,1.246,0.161,-27.039,3.845,48.584
0.302,1.088,0.211,-15.686,6.348,17.334
0.226,0.907,0.118,-13.184,14.160,-8.667
0.203,0.715,0.076,-16.541,27.771,-31.799
0.208,0.542,-0.028,-21.545,36.438,-49.133
0.186,0.380,-0.135,-22.461,38.452,-61.646
0.155,0.222,-0.236,-18.616,38.757,-70.496
0.146,0.063,-0.294,-9.155,35.522,-75.867
0.114,-0.084,-0.343,2.136,27.405,-76.416
0.085,-0.253,-0.353,13.916,17.639,-74.890
0.038,-0.405,-0.336,25.330,8.240,-71.289
0.008,-0.543,-0.287,34.363,1.465,-65.796
-0.033,-0.666,-0.239,39.124,-2.075,-59.875
-0.032,-0.763,-0.200,39.917,-2.563,-53.040
-0.040,-0.842,-0.172,35.278,-1.953,-49.072
-0.035,-0.939,-0.155,28.870,-1.465,-48.035
-0.026,-1.055,-0.131,23.804,-1.160,-46.570
-0.034,-1.144,-0.116,17.029,-0.183,-43.396
-0.039,-1.209,-0.142,9.583,3.235,-37.415
-0.011,-1.238,-0.182,4.578,6.470,-28.076
0.075,-1.248,-0.243,4.883,6.775,-17.029
0.072,-1.184,-0.267,5.554,2.197,-10.498
0.124,-1.125,-0.280,9.277,-1.892,-3.723
0.151,-1.080,-0.265,17.029,-6.714,2.136
0.154,-1.041,-0.230,24.963,-11.597,5.615
0.152,-1.027,-0.200,31.860,-15.442,7.446
0.135,-1.028,-0.171,34.302,-16.541,6.470
0.113,-1.044,-0.150,31.311,-15.137,3.357
0.101,-1.071,-0.142,24.475,-11.230,-0.732
0.056,-1.086,-0.159,15.076,-6.775,-4.883
0.131,-1.104,-0.179,5.981,-0.977,-6.226
0.154,-1.096,-0.247,-0.427,2.380,-6.653
0.142,-1.062,-0.290,-3.235,1.770,-8.240
0.149,-1.000,-0.316,-2.258,-0.366,-5.981
0.180,-0.958,-0.322,8.301,-3.418,-2.075
0.168,-0.943,-0.302,20.386,-7.568,-1.404
0.133,-0.958,-0.253,28.992,-11.719,-3.418
0.101,-0.997,-0.204,33.691,-13.611,-5.920
0.072,-1.046,-0.170,33.264,-12.268,-8.179
0.052,-1.088,-0.157,28.442,-9.155,-10.315
0.053,-1.099,-0.164,20.935,-5.432,-11.597
0.064,-1.094,-0.187,13.306,-1.099,-12.573
0.072,-1.078,-0.223,9.216,1.587,-12.390
0.084,-1.080,-0.258,9.521,2.380,-11.658
0.089,-1.072,-0.280,12.085,1.282,-10.376
0.096,-1.061,-0.294,17.029,-0.977,-7.385
0.068,-1.046,-0.287,22.400,-4.822,-5.493
0.052,-1.053,-0.278,26.733,-7.202,-4.700
0.047,-1.079,-0.268,28.870,-7.935,-4.395
0.046,-1.101,-0.259,28.381,-8.179,-3.662
0.054,-1.094,-0.249,24.902,-7.263,-3.052
0.063,-1.089,-0.245,20.630,-5.737,-2.808
0.074,-1.064,-0.250,18.311,-3.967,-2.502
0.068,-1.055,-0.263,17.029,-2.930,-3.052
0.061,-1.062,-0.267,16.907,-2.625,-3.723
0.054,-1.089,-0.265,16.052,-2.625,-5.005
0.049,-1.103,-0.264,13.916,-2.136,-5.127
0.052,-1.094,-0.283,12.634,-1.038,-3.174
0.062,-1.068,-0.308,13.184,-0.916,-0.732
0.081,-1.067,-0.322,14.709,-2.014,1.404
0.079,-1.033,-0.322,16.602,-3.540,2.808
0.092,-1.023,-0.325,19.897,-5.005,4.517
0.067,-1.013,-0.324,23.376,-5.676,5.798
0.086,-1.006,-0.303,24.109,-5.554,5.981
0.071,-0.997,-0.291,22.034,-5.615,3.723
0.050,-1.003,-0.272,18.250,-4.517,0.916
0.042,-1.027,-0.271,13.733,-2.502,-1.587
0.042,-1.055,-0.275,8.118,0.244,-3.662
0.047,-1.054,-0.294,2.136,2.808,-4.517
0.051,-1.022,-0.325,-0.671,4.822,-3.601
0.097,-1.016,-0.363,1.160,5.371,-1.282
0.092,-1.003,-0.382,4.333,3.357,-0.916
0.096,-1.004,-0.371,8.301,-0.366,-1.770
0.093,-1.015,-0.348,14.099,-3.296,0.122
0.080,-1.014,-0.324,16.052,-5.554,1.160
0.056,-1.009,-0.302,16.235,-6.287,1.282
0.050,-1.015,-0.280,15.320,-5.798,0.854
0.049,-1.019,-0.276,11.719,-3.967,0.061
0.061,-1.002,-0.293,7.812,-1.587,-0.183
0.071,-0.971,-0.319,5.371,0.427,0.000
0.080,-0.966,-0.338,5.859,0.061,-0.061
0.089,-0.967,-0.330,7.263,-0.854,-0.244
0.079,-0.975,-0.316,8.301,-2.380,-0.854
0.076,-0.978,-0.310,9.521,-2.747,-0.549
0.066,-0.985,-0.316,10.010,-2.808,-0.488
0.064,-1.000,-0.317,9.705,-3.174,-0.549
0.064,-1.000,-0.319,8.240,-3.174,0.000
0.065,-0.980,-0.325,6.897,-2.747,1.038
0.070,-0.959,-0.328,6.897,-2.869,1.770
0.070,-0.946,-0.326,6.409,-3.296,1.831
0.078,-0.924,-0.328,6.165,-3.113,1.953
0.082,-0.907,-0.340,7.629,-3.052,2.319
0.083,-0.898,-0.343,9.033,-3.906,1.587
0.084,-0.904,-0.336,9.766,-4.822,0.427
0.076,-0.924,-0.316,11.169,-5.981,-1.038
0.068,-0.949,-0.297,11.047,-6.042,-2.319
0.064,-0.962,-0.292,9.521,-5.005,-3.113
0.060,-0.960,-0.294,7.324,-3.540,-3.479
0.063,-0.951,-0.304,4.517,-2.319,-4.028

